recording_id,time,flex0,flex1,flex2,flex3,flex4,accX,accY,accZ,gyroX,gyroY,gyroZ,label
0,0,862,836,794,865,939,-0.712,0.417,-0.671,-34.931,33.130,8.527,Bye
0,4,863,846,822,870,939,-0.708,0.411,-0.653,-33.695,30.115,8.695,Bye
0,8,863,837,832,865,929,-0.704,0.407,-0.655,-32.702,26.290,9.153,Bye
0,12,861,842,818,865,937,-0.698,0.418,-0.646,-32.160,22.038,10.092,Bye
0,16,827,837,813,865,931,-0.691,0.402,-0.633,-31.267,17.763,10.756,Bye
0,20,861,846,819,871,938,-0.682,0.390,-0.625,-30.153,14.122,10.832,Bye
0,24,863,841,835,866,935,-0.627,0.368,-0.589,-14.115,5.519,16.519,Bye
0,28,863,834,823,872,927,-0.610,0.364,-0.585,-11.679,6.351,18.252,Bye
0,32,861,850,819,870,928,-0.611,0.365,-0.584,-8.695,8.061,19.206,Bye
0,36,869,847,823,873,934,-0.619,0.369,-0.597,-6.351,10.229,19.084,Bye
0,40,857,839,822,873,931,-0.630,0.374,-0.605,-5.527,13.435,18.710,Bye
0,44,862,842,829,869,930,-0.622,0.378,-0.610,-5.206,17.115,18.695,Bye
0,48,863,839,818,868,939,-0.641,0.383,-0.627,-4.977,20.855,17.595,Bye
0,52,865,837,825,867,931,-0.647,0.385,-0.649,-5.275,24.550,15.534,Bye
0,56,859,833,823,870,929,-0.666,0.384,-0.646,-7.076,28.046,12.252,Bye
0,60,863,838,819,870,932,-0.677,0.389,-0.656,-9.733,30.397,7.718,Bye
0,64,863,841,819,873,929,-0.708,0.402,-0.664,-12.962,31.397,1.992,Bye
0,68,867,839,821,870,929,-0.719,0.401,-0.669,-16.924,30.916,-5.573,Bye
0,72,861,845,821,871,941,-0.727,0.402,-0.675,-20.656,28.695,-12.817,Bye
0,76,869,839,821,874,938,-0.747,0.396,-0.679,-23.847,24.656,-19.481,Bye
0,80,871,841,827,875,941,-0.745,0.397,-0.656,-24.740,19.809,-24.809,Bye
0,84,865,839,823,868,934,-0.750,0.398,-0.655,-24.603,14.420,-27.908,Bye
0,88,855,843,821,874,935,-0.737,0.388,-0.643,-22.878,8.183,-29.038,Bye
0,92,864,841,823,867,933,-0.734,0.386,-0.641,-20.076,1.908,-28.450,Bye
0,96,866,843,815,864,929,-0.720,0.387,-0.626,-16.260,-4.031,-26.374,Bye
0,100,863,842,819,870,932,-0.711,0.384,-0.618,-11.763,-9.374,-23.321,Bye
0,104,861,837,827,875,930,-0.704,0.386,-0.628,-7.679,-14.153,-18.985,Bye
0,108,856,839,827,874,935,-0.700,0.387,-0.621,-2.626,-18.290,-14.374,Bye
0,112,865,836,821,871,931,-0.682,0.378,-0.622,3.489,-21.511,-9.985,Bye
0,116,864,839,817,877,922,-0.671,0.376,-0.622,9.634,-23.359,-4.847,Bye
0,120,861,841,819,871,933,-0.663,0.373,-0.615,15.954,-23.939,-0.313,Bye
0,124,865,838,823,867,929,-0.650,0.364,-0.599,23.137,-23.771,2.962,Bye
0,128,867,836,831,870,941,-0.639,0.365,-0.603,30.046,-22.771,5.160,Bye
0,132,859,834,816,870,933,-0.629,0.366,-0.588,35.260,-21.145,6.573,Bye
0,136,863,849,816,867,934,-0.623,0.369,-0.578,39.137,-19.336,6.962,Bye
0,140,866,839,817,870,933,-0.620,0.377,-0.584,41.473,-18.588,5.740,Bye
0,144,860,838,824,872,930,-0.627,0.388,-0.568,41.466,-18.954,3.725,Bye
0,148,855,838,825,870,929,-0.630,0.399,-0.562,40.115,-19.763,1.130,Bye
0,152,863,843,822,873,937,-0.630,0.403,-0.566,38.008,-21.534,-0.786,Bye
0,156,866,838,810,867,931,-0.644,0.410,-0.568,34.794,-23.336,-2.435,Bye
0,160,863,842,816,867,935,-0.649,0.425,-0.587,29.802,-24.282,-4.321,Bye
0,164,864,833,819,869,930,-0.651,0.428,-0.605,23.817,-24.786,-7.580,Bye
0,168,857,837,821,869,933,-0.661,0.434,-0.613,17.206,-24.702,-13.053,Bye
0,172,848,817,800,868,915,-0.666,0.431,-0.620,11.137,-23.893,-20.374,Bye
0,176,867,850,825,867,941,-0.664,0.435,-0.641,6.344,-21.992,-27.809,Bye
0,180,864,846,823,870,938,-0.659,0.427,-0.647,2.221,-18.626,-34.718,Bye
0,184,855,849,819,877,934,-0.662,0.432,-0.659,0.038,-14.298,-40.695,Bye
0,188,862,842,818,873,934,-0.664,0.428,-0.664,-1.130,-10.771,-46.008,Bye
0,192,866,845,818,874,943,-0.672,0.430,-0.654,-1.626,-7.786,-50.687,Bye
0,196,855,848,822,871,935,-0.670,0.429,-0.648,-1.351,-6.664,-54.000,Bye
0,200,865,844,819,875,933,-0.669,0.431,-0.634,1.427,-7.260,-54.000,Bye
0,204,865,844,821,870,929,-0.669,0.434,-0.640,5.405,-8.672,-51.076,Bye
0,208,860,841,827,872,927,-0.674,0.435,-0.624,8.115,-9.672,-45.733,Bye
0,212,863,843,821,876,931,-0.672,0.439,-0.616,12.855,-12.794,-39.771,Bye
0,216,861,833,821,869,931,-0.667,0.441,-0.606,18.267,-18.122,-33.992,Bye
0,220,868,830,815,867,935,-0.673,0.443,-0.601,22.412,-22.374,-27.771,Bye
0,224,866,841,821,873,929,-0.664,0.446,-0.600,25.809,-27.504,-20.000,Bye
0,228,861,842,817,868,933,-0.659,0.442,-0.601,31.427,-31.168,-12.527,Bye
0,232,859,835,818,875,935,-0.649,0.448,-0.617,34.313,-32.672,-6.336,Bye
0,236,864,838,822,870,933,-0.642,0.451,-0.610,35.969,-33.664,-2.275,Bye
0,240,849,843,817,875,934,-0.647,0.450,-0.604,37.061,-34.908,-1.588,Bye
0,244,849,848,816,869,938,-0.638,0.449,-0.613,37.069,-35.183,-3.122,Bye
0,248,864,842,815,877,930,-0.634,0.469,-0.609,33.832,-35.000,-3.977,Bye
0,252,865,837,818,874,944,-0.639,0.472,-0.612,30.924,-34.954,-5.145,Bye
0,256,861,848,816,871,935,-0.625,0.473,-0.617,27.939,-33.237,-7.374,Bye
0,260,865,841,821,870,938,-0.626,0.483,-0.627,24.832,-31.359,-8.634,Bye
0,264,859,847,825,877,939,-0.635,0.497,-0.641,19.939,-27.702,-8.641,Bye
0,268,867,845,822,869,937,-0.644,0.508,-0.660,13.130,-22.534,-9.786,Bye
0,272,855,834,819,875,931,-0.650,0.516,-0.677,4.733,-17.855,-13.626,Bye
0,276,866,847,818,875,946,-0.678,0.529,-0.686,-5.847,-13.237,-20.740,Bye
0,280,865,838,826,876,944,-0.697,0.540,-0.711,-18.916,-10.527,-28.321,Bye
0,284,858,847,820,873,933,-0.713,0.534,-0.732,-28.305,-10.237,-36.641,Bye
0,288,863,842,816,868,923,-0.715,0.543,-0.743,-40.336,-6.649,-47.672,Bye
0,292,859,847,816,870,933,-0.720,0.540,-0.740,-48.802,-3.542,-53.611,Bye
0,296,859,838,820,876,929,-0.724,0.537,-0.741,-56.000,-2.519,-59.618,Bye
0,300,861,848,819,877,935,-0.724,0.514,-0.731,-59.206,-2.023,-66.336,Bye
0,304,855,842,821,876,933,-0.718,0.511,-0.728,-61.305,-2.878,-72.000,Bye
0,308,865,837,821,875,929,-0.708,0.498,-0.710,-58.550,-5.496,-74.176,Bye
0,312,863,833,816,874,932,-0.705,0.501,-0.687,-54.160,-9.015,-69.611,Bye
0,316,859,836,827,874,930,-0.680,0.499,-0.680,-46.664,-10.443,-62.046,Bye
0,320,864,841,815,875,933,-0.668,0.492,-0.657,-38.840,-12.534,-51.557,Bye
0,324,853,834,831,868,942,-0.669,0.498,-0.629,-32.015,-16.893,-40.901,Bye
0,328,867,836,822,874,929,-0.661,0.498,-0.610,-24.954,-23.511,-31.519,Bye
0,332,858,836,819,875,934,-0.650,0.495,-0.603,-18.588,-30.084,-22.046,Bye
0,336,866,846,818,873,935,-0.637,0.505,-0.591,-12.893,-37.115,-8.756,Bye
0,340,859,836,819,880,934,-0.614,0.502,-0.579,-6.053,-42.443,6.229,Bye
0,344,864,837,816,873,932,-0.599,0.483,-0.576,2.282,-44.427,19.099,Bye
0,348,853,832,819,874,940,-0.582,0.484,-0.568,9.084,-44.122,29.374,Bye
0,352,858,834,819,875,943,-0.561,0.483,-0.573,11.695,-40.672,35.435,Bye
0,356,859,833,830,874,925,-0.554,0.489,-0.577,9.565,-35.824,35.832,Bye
0,360,855,837,816,874,943,-0.554,0.477,-0.565,6.550,-31.656,29.977,Bye
0,364,874,830,818,870,935,-0.556,0.482,-0.583,2.756,-27.534,22.679,Bye
0,368,851,843,819,871,929,-0.547,0.487,-0.573,-4.878,-19.771,14.695,Bye
0,372,864,832,819,879,929,-0.542,0.500,-0.588,-11.969,-10.634,9.718,Bye
0,376,834,805,803,870,910,-0.545,0.507,-0.597,-18.198,-1.336,7.901,Bye
0,380,866,833,816,874,939,-0.554,0.517,-0.625,-26.015,8.725,5.802,Bye
0,384,864,833,823,878,938,-0.568,0.516,-0.647,-33.550,20.641,1.504,Bye
0,388,853,826,822,874,926,-0.584,0.514,-0.669,-38.908,33.618,-3.863,Bye
0,392,873,835,824,873,930,-0.609,0.519,-0.705,-45.832,47.817,-8.756,Bye
0,396,863,826,830,877,931,-0.642,0.539,-0.752,-54.550,64.107,-12.511,Bye
0,400,849,833,830,872,917,-0.690,0.552,-0.790,-62.221,77.443,-18.718,Bye
0,404,862,826,817,877,912,-0.742,0.568,-0.833,-74.756,91.038,-27.481,Bye
0,408,859,821,816,871,907,-0.793,0.582,-0.859,-89.481,99.641,-38.008,Bye
0,412,854,817,816,875,912,-0.866,0.589,-0.875,-105.847,99.084,-54.107,Bye
0,416,862,819,818,873,909,-0.890,0.584,-0.875,-120.084,94.435,-72.748,Bye
0,420,861,813,816,877,909,-0.917,0.575,-0.857,-133.206,83.679,-87.351,Bye
0,424,848,823,813,873,908,-0.915,0.562,-0.818,-141.672,67.870,-95.183,Bye
0,428,854,817,811,875,895,-0.897,0.523,-0.765,-142.397,48.244,-98.641,Bye
0,432,853,810,813,879,903,-0.872,0.504,-0.699,-136.595,24.550,-96.748,Bye
0,436,849,814,816,875,902,-0.822,0.481,-0.636,-125.183,-0.573,-85.847,Bye
0,440,860,815,822,872,905,-0.763,0.464,-0.576,-110.015,-23.321,-66.687,Bye
0,444,844,822,811,871,891,-0.688,0.446,-0.521,-89.382,-42.099,-42.924,Bye
0,448,846,817,816,874,895,-0.626,0.433,-0.495,-67.443,-54.893,-15.282,Bye
0,452,847,818,815,871,895,-0.559,0.437,-0.489,-46.588,-58.679,17.710,Bye
0,456,850,819,809,873,896,-0.509,0.442,-0.510,-29.580,-53.198,49.962,Bye
0,460,838,827,816,875,895,-0.483,0.439,-0.530,-12.626,-41.626,79.557,Bye
0,464,849,815,801,874,885,-0.460,0.450,-0.561,-2.038,-24.412,101.779,Bye
0,468,844,816,802,873,886,-0.469,0.457,-0.602,1.519,-2.763,113.824,Bye
0,472,845,817,802,869,895,-0.496,0.450,-0.631,-0.031,17.870,114.321,Bye
0,476,843,816,803,870,889,-0.514,0.449,-0.656,-6.382,38.756,104.466,Bye
0,480,826,799,784,869,875,-0.530,0.443,-0.650,-17.412,59.221,82.282,Bye
0,484,838,819,809,877,891,-0.546,0.431,-0.656,-27.626,70.802,53.947,Bye
0,488,839,821,803,875,881,-0.576,0.430,-0.615,-43.115,80.611,17.435,Bye
0,492,840,819,801,873,887,-0.576,0.433,-0.572,-61.992,85.069,-12.710,Bye
0,496,831,815,794,873,880,-0.590,0.449,-0.545,-79.679,87.466,-34.443,Bye
0,500,831,819,797,878,882,-0.589,0.442,-0.497,-92.214,81.519,-50.351,Bye
0,504,832,819,787,877,886,-0.573,0.432,-0.463,-103.389,76.588,-63.168,Bye
0,508,828,816,789,873,879,-0.572,0.430,-0.438,-109.656,66.359,-66.855,Bye
0,512,825,826,790,871,877,-0.554,0.441,-0.448,-113.489,62.298,-59.542,Bye
0,516,827,818,791,875,870,-0.547,0.442,-0.475,-113.870,59.427,-42.687,Bye
0,520,821,823,784,873,861,-0.542,0.429,-0.518,-107.916,64.015,-24.359,Bye
0,524,832,821,785,874,867,-0.548,0.408,-0.564,-97.282,71.137,-9.656,Bye
0,528,816,826,784,873,867,-0.550,0.402,-0.613,-86.130,85.519,2.115,Bye
0,532,819,822,784,871,867,-0.586,0.408,-0.663,-79.115,100.809,12.382,Bye
0,536,818,816,782,873,864,-0.618,0.408,-0.719,-72.595,118.344,16.695,Bye
0,540,814,817,784,868,866,-0.667,0.396,-0.739,-67.771,132.832,12.099,Bye
0,544,817,821,778,869,866,-0.721,0.405,-0.755,-62.008,141.061,0.733,Bye
0,548,816,817,783,867,864,-0.784,0.410,-0.766,-58.824,141.405,-10.031,Bye
0,552,816,816,786,873,862,-0.828,0.439,-0.780,-57.473,135.214,-14.580,Bye
0,556,831,816,785,869,862,-0.870,0.474,-0.790,-59.771,126.641,-11.832,Bye
0,560,816,825,778,869,863,-0.893,0.481,-0.802,-60.176,115.435,-7.649,Bye
0,564,816,818,772,874,858,-0.913,0.485,-0.801,-62.817,101.901,-8.405,Bye
0,568,816,820,779,872,859,-0.929,0.489,-0.779,-69.183,86.763,-15.137,Bye
0,572,821,829,778,868,863,-0.930,0.487,-0.763,-79.130,67.237,-25.290,Bye
0,576,819,819,777,871,859,-0.914,0.471,-0.726,-87.672,44.786,-34.351,Bye
0,580,816,816,779,870,858,-0.863,0.456,-0.671,-93.260,24.053,-38.756,Bye
0,584,816,822,784,871,863,-0.808,0.414,-0.625,-89.679,4.137,-37.802,Bye
0,588,817,831,767,871,862,-0.734,0.371,-0.562,-76.992,-12.298,-31.466,Bye
0,592,821,822,782,871,857,-0.648,0.339,-0.494,-62.664,-24.328,-19.603,Bye
0,596,819,822,771,865,860,-0.573,0.317,-0.442,-45.702,-32.061,-5.359,Bye
0,600,821,828,779,875,855,-0.511,0.287,-0.418,-26.260,-36.137,7.366,Bye
0,604,826,823,779,866,862,-0.425,0.272,-0.366,-8.176,-34.527,18.336,Bye
0,608,816,822,769,866,862,-0.387,0.264,-0.354,8.664,-28.229,29.779,Bye
0,612,816,827,778,865,849,-0.347,0.256,-0.347,29.137,-18.924,42.817,Bye
0,616,816,825,781,871,853,-0.308,0.274,-0.351,44.794,-3.656,58.771,Bye
0,620,819,815,779,870,855,-0.295,0.296,-0.357,57.069,13.748,76.359,Bye
0,624,815,822,778,867,859,-0.299,0.286,-0.350,67.389,31.198,87.473,Bye
0,628,818,816,769,866,857,-0.325,0.291,-0.373,75.618,47.374,90.435,Bye
0,632,815,818,773,868,857,-0.361,0.309,-0.387,77.252,63.344,86.893,Bye
0,636,818,830,773,870,850,-0.393,0.335,-0.402,74.176,76.893,78.885,Bye
0,640,817,823,769,867,854,-0.448,0.349,-0.446,69.458,89.031,67.191,Bye
0,644,819,821,771,866,859,-0.497,0.387,-0.507,59.336,102.168,53.908,Bye
0,648,816,820,777,871,854,-0.573,0.427,-0.576,44.847,114.550,40.679,Bye
0,652,817,816,781,867,862,-0.652,0.455,-0.651,24.023,125.931,22.679,Bye
0,656,819,825,773,866,861,-0.725,0.489,-0.726,0.191,133.397,-0.214,Bye
0,660,816,823,772,863,854,-0.819,0.507,-0.764,-28.840,136.053,-31.046,Bye
0,664,822,821,775,867,868,-0.869,0.514,-0.804,-58.389,132.885,-63.328,Bye
0,668,816,827,769,865,865,-0.917,0.500,-0.809,-83.870,125.008,-94.908,Bye
0,672,813,823,773,866,855,-0.938,0.493,-0.813,-101.893,111.542,-120.008,Bye
0,676,818,829,772,863,851,-0.940,0.465,-0.793,-112.374,96.679,-137.740,Bye
0,680,815,819,775,863,854,-0.925,0.429,-0.747,-113.977,77.954,-147.321,Bye
0,684,790,801,741,862,837,-0.896,0.399,-0.701,-105.840,58.534,-150.985,Bye
0,688,817,823,769,863,870,-0.853,0.371,-0.635,-90.290,37.809,-147.695,Bye
0,692,815,827,771,865,859,-0.794,0.353,-0.576,-69.252,17.130,-136.763,Bye
0,696,816,825,769,870,855,-0.747,0.343,-0.528,-41.565,-2.725,-117.191,Bye
0,700,819,828,763,866,864,-0.691,0.338,-0.495,-10.084,-20.298,-87.870,Bye
0,704,818,822,773,867,865,-0.655,0.347,-0.485,22.153,-33.634,-48.275,Bye
0,708,811,823,762,863,854,-0.605,0.347,-0.470,55.168,-43.008,-5.061,Bye
0,712,817,829,774,867,864,-0.575,0.357,-0.466,86.641,-48.542,37.000,Bye
0,716,815,836,780,863,859,-0.556,0.363,-0.472,113.855,-50.290,74.977,Bye
0,720,807,822,772,867,861,-0.551,0.384,-0.505,134.336,-48.740,105.954,Bye
0,724,815,825,766,865,864,-0.560,0.395,-0.524,147.053,-44.481,125.344,Bye
0,728,811,832,765,862,876,-0.563,0.403,-0.552,153.771,-37.023,132.099,Bye
0,732,821,828,766,870,863,-0.580,0.398,-0.579,155.038,-28.305,125.458,Bye
0,736,818,825,768,868,869,-0.602,0.417,-0.591,149.153,-19.336,109.206,Bye
0,740,813,829,775,864,866,-0.623,0.442,-0.603,136.878,-11.969,85.931,Bye
0,744,811,830,772,860,860,-0.662,0.473,-0.630,117.901,-6.710,58.702,Bye
0,748,813,826,770,862,865,-0.683,0.495,-0.647,94.878,-3.107,29.153,Bye
0,752,819,825,765,865,858,-0.708,0.513,-0.663,68.901,-1.420,-0.267,Bye
0,756,815,825,767,866,863,-0.719,0.537,-0.667,42.191,-0.916,-26.618,Bye
0,760,818,823,776,871,870,-0.727,0.550,-0.663,13.901,-1.206,-49.969,Bye
0,764,816,829,770,862,861,-0.716,0.539,-0.641,-12.359,-2.969,-71.656,Bye
0,768,816,829,767,868,863,-0.709,0.524,-0.611,-33.321,-7.504,-92.695,Bye
0,772,820,834,768,868,863,-0.693,0.506,-0.581,-47.473,-13.206,-108.786,Bye
0,776,813,827,771,867,870,-0.677,0.491,-0.579,-53.779,-20.153,-115.710,Bye
0,780,806,830,767,866,875,-0.666,0.489,-0.583,-54.397,-25.954,-110.061,Bye
0,784,810,827,777,861,858,-0.648,0.481,-0.597,-48.802,-28.366,-96.458,Bye
0,788,832,841,780,864,867,-0.643,0.453,-0.595,-36.695,-28.351,-81.634,Bye
0,792,818,842,784,863,869,-0.630,0.433,-0.598,-19.481,-27.969,-68.550,Bye
0,796,818,832,773,865,867,-0.625,0.431,-0.598,-2.397,-26.634,-56.595,Bye
0,800,824,833,769,866,865,-0.627,0.442,-0.599,13.130,-25.611,-43.710,Bye
0,804,816,822,763,865,863,-0.628,0.445,-0.608,29.015,-25.504,-29.405,Bye
0,808,815,831,768,865,867,-0.636,0.449,-0.613,46.450,-26.115,-14.313,Bye
0,812,820,836,782,863,867,-0.639,0.460,-0.604,63.702,-28.229,2.603,Bye
0,816,819,830,773,863,863,-0.656,0.473,-0.592,79.229,-33.618,21.450,Bye
0,820,811,825,768,865,871,-0.669,0.490,-0.581,90.229,-42.298,38.969,Bye
0,824,807,831,777,864,867,-0.680,0.496,-0.569,95.389,-53.573,49.992,Bye
0,828,813,818,774,869,863,-0.683,0.508,-0.555,95.924,-66.656,52.794,Bye
0,832,822,833,763,860,864,-0.685,0.516,-0.550,90.863,-80.687,48.771,Bye
0,836,816,832,768,865,866,-0.678,0.534,-0.568,81.412,-92.496,42.298,Bye
0,840,817,834,772,867,863,-0.669,0.540,-0.585,69.870,-103.191,37.565,Bye
0,844,817,829,767,864,866,-0.650,0.558,-0.619,55.679,-105.649,31.336,Bye
0,848,815,817,758,867,866,-0.634,0.562,-0.652,40.267,-102.641,27.611,Bye
0,852,816,832,768,865,864,-0.623,0.553,-0.667,27.427,-96.656,21.565,Bye
0,856,818,827,765,871,863,-0.604,0.546,-0.689,13.435,-85.305,8.580,Bye
0,860,821,827,772,864,863,-0.592,0.545,-0.695,-2.237,-70.595,-8.290,Bye
0,864,819,831,765,867,862,-0.588,0.532,-0.698,-13.771,-57.397,-25.221,Bye
0,868,816,831,771,863,869,-0.590,0.532,-0.699,-23.740,-44.000,-39.679,Bye
0,872,816,831,775,859,864,-0.587,0.531,-0.705,-31.282,-31.931,-47.198,Bye
0,876,816,838,768,859,863,-0.601,0.535,-0.687,-34.290,-24.115,-47.061,Bye
0,880,819,835,766,867,864,-0.621,0.518,-0.675,-32.687,-20.122,-43.328,Bye
0,884,816,831,766,867,867,-0.619,0.521,-0.670,-30.313,-18.763,-38.672,Bye
0,888,798,811,750,850,844,-0.636,0.521,-0.648,-31.962,-19.313,-36.870,Bye
0,892,816,843,779,863,867,-0.648,0.515,-0.632,-31.489,-24.008,-35.420,Bye
0,896,822,832,773,863,874,-0.647,0.499,-0.629,-28.511,-31.137,-32.954,Bye
0,900,822,830,771,871,867,-0.646,0.510,-0.615,-27.473,-37.198,-31.260,Bye
0,904,817,834,769,865,867,-0.646,0.507,-0.612,-27.092,-42.908,-28.824,Bye
0,908,818,827,761,863,855,-0.647,0.507,-0.611,-24.855,-50.130,-23.489,Bye
0,912,819,834,768,865,877,-0.638,0.510,-0.607,-21.954,-57.885,-15.573,Bye
0,916,825,819,765,861,859,-0.615,0.495,-0.599,-18.992,-62.870,-7.725,Bye
0,920,816,821,773,865,855,-0.602,0.484,-0.586,-15.313,-68.069,-1.053,Bye
0,924,816,834,774,865,865,-0.575,0.466,-0.547,-10.145,-72.611,3.015,Bye
0,928,826,831,769,866,866,-0.547,0.451,-0.522,-4.275,-76.244,4.191,Bye
0,932,831,839,769,866,856,-0.518,0.431,-0.474,1.221,-80.656,5.168,Bye
0,936,823,825,772,866,866,-0.489,0.430,-0.436,6.550,-87.053,8.160,Bye
0,940,828,839,771,870,869,-0.456,0.411,-0.401,12.847,-93.511,13.282,Bye
0,944,825,832,779,864,867,-0.424,0.401,-0.387,21.412,-99.618,23.344,Bye
0,948,821,832,777,866,873,-0.380,0.393,-0.358,31.221,-103.916,38.450,Bye
0,952,812,843,775,865,874,-0.346,0.382,-0.336,43.115,-104.992,56.740,Bye
0,956,825,829,782,870,867,-0.302,0.378,-0.337,54.672,-100.542,75.878,Bye
0,960,832,832,784,870,883,-0.269,0.376,-0.355,63.145,-89.298,94.366,Bye
0,964,832,835,783,871,880,-0.252,0.367,-0.363,69.809,-74.145,107.359,Bye
0,968,826,832,783,871,878,-0.230,0.359,-0.369,73.855,-54.382,113.015,Bye
0,972,833,832,787,870,880,-0.240,0.352,-0.392,75.443,-33.260,113.321,Bye
0,976,827,833,788,868,880,-0.246,0.357,-0.415,75.649,-11.443,112.115,Bye
0,980,826,827,784,868,876,-0.260,0.362,-0.430,74.908,11.771,112.786,Bye
0,984,830,823,784,871,880,-0.271,0.373,-0.457,73.702,36.244,113.695,Bye
0,988,840,827,802,867,887,-0.308,0.357,-0.474,73.763,60.924,112.618,Bye
0,992,819,820,777,862,895,-0.339,0.370,-0.488,71.771,83.748,107.687,Bye
0,996,833,832,799,868,896,-0.389,0.385,-0.503,66.725,105.489,99.511,Bye
0,1000,842,845,791,867,883,-0.444,0.402,-0.519,56.893,121.649,88.908,Bye
0,1004,833,830,806,867,894,-0.508,0.422,-0.560,43.321,135.008,76.221,Bye
0,1008,839,829,797,871,898,-0.578,0.441,-0.593,28.748,143.893,63.496,Bye
0,1012,835,835,810,869,898,-0.646,0.468,-0.617,11.382,149.366,51.985,Bye
0,1016,848,828,814,871,903,-0.728,0.496,-0.665,-8.160,149.137,43.015,Bye
0,1020,845,830,814,871,906,-0.807,0.509,-0.722,-28.496,143.557,33.374,Bye
0,1024,858,830,817,869,905,-0.884,0.528,-0.794,-50.099,137.275,20.870,Bye
0,1028,853,834,819,871,903,-0.967,0.540,-0.854,-72.901,122.443,6.985,Bye
0,1032,840,831,816,875,903,-1.014,0.540,-0.916,-98.504,113.870,-17.290,Bye
0,1036,850,832,815,871,911,-1.080,0.534,-0.966,-124.038,98.603,-46.076,Bye
0,1040,857,831,819,869,912,-1.131,0.527,-0.998,-148.405,76.160,-75.931,Bye
0,1044,848,838,815,869,913,-1.138,0.493,-1.035,-161.702,54.969,-106.718,Bye
0,1048,846,842,816,875,925,-1.133,0.467,-1.038,-166.580,30.359,-125.061,Bye
0,1052,846,848,822,868,913,-1.085,0.435,-1.037,-159.611,10.183,-124.305,Bye
0,1056,861,844,813,871,920,-1.008,0.375,-0.991,-133.206,-4.473,-113.176,Bye
0,1060,854,841,816,873,914,-0.921,0.321,-0.946,-96.000,-11.542,-94.282,Bye
0,1064,861,848,819,870,913,-0.851,0.315,-0.872,-61.252,-15.450,-64.992,Bye
0,1068,850,843,812,871,927,-0.773,0.276,-0.783,-25.794,-17.649,-38.206,Bye
0,1072,852,838,819,877,928,-0.713,0.240,-0.705,13.863,-21.366,-15.046,Bye
0,1076,859,846,817,868,929,-0.646,0.239,-0.609,51.527,-28.115,15.237,Bye
0,1080,861,847,819,870,931,-0.586,0.232,-0.537,90.023,-34.244,55.206,Bye
0,1084,861,836,827,871,932,-0.531,0.219,-0.481,131.550,-37.328,100.756,Bye
0,1088,850,845,822,869,924,-0.495,0.222,-0.453,170.099,-39.382,148.015,Bye
0,1092,862,844,815,871,924,-0.486,0.238,-0.440,199.130,-39.656,187.267,Bye
0,1096,859,845,826,877,931,-0.502,0.259,-0.447,217.137,-38.466,208.771,Bye
0,1100,864,848,818,871,931,-0.546,0.293,-0.473,221.374,-40.252,213.313,Bye
0,1104,860,848,825,877,927,-0.589,0.331,-0.534,211.618,-41.038,203.336,Bye
0,1108,857,848,822,869,933,-0.636,0.378,-0.599,190.634,-38.031,181.573,Bye
0,1112,853,848,821,874,923,-0.686,0.415,-0.681,161.870,-32.809,153.695,Bye
0,1116,858,847,817,869,922,-0.742,0.452,-0.758,125.939,-25.733,120.573,Bye
0,1120,864,848,818,870,930,-0.781,0.474,-0.826,83.473,-16.878,77.260,Bye
0,1124,855,850,821,868,924,-0.820,0.486,-0.871,40.061,-10.015,29.695,Bye
0,1128,865,847,818,869,930,-0.853,0.485,-0.892,-4.992,-7.115,-23.267,Bye
0,1132,868,848,818,871,937,-0.862,0.472,-0.900,-47.893,-2.244,-77.206,Bye
0,1136,866,848,820,873,924,-0.856,0.464,-0.880,-82.282,1.160,-122.366,Bye
0,1140,853,847,827,871,939,-0.840,0.430,-0.871,-107.908,3.366,-159.855,Bye
0,1144,865,849,819,869,928,-0.818,0.400,-0.847,-119.221,3.695,-182.191,Bye
0,1148,859,848,819,874,927,-0.786,0.383,-0.807,-120.855,4.313,-191.870,Bye
0,1152,863,862,819,870,931,-0.765,0.358,-0.772,-111.099,1.855,-189.427,Bye
0,1156,864,850,816,869,922,-0.753,0.338,-0.746,-92.885,-3.206,-176.832,Bye
0,1160,861,861,823,876,917,-0.728,0.320,-0.707,-67.855,-8.893,-156.725,Bye
0,1164,865,848,816,871,931,-0.715,0.315,-0.685,-39.718,-16.031,-129.374,Bye
0,1168,866,854,816,875,925,-0.697,0.306,-0.656,-7.519,-25.527,-97.420,Bye
0,1172,861,851,817,875,931,-0.685,0.294,-0.635,27.405,-34.992,-62.977,Bye
0,1176,860,851,820,875,931,-0.673,0.304,-0.619,62.122,-44.916,-27.313,Bye
0,1180,861,851,817,871,941,-0.664,0.305,-0.608,94.527,-55.588,7.962,Bye
0,1184,865,853,818,867,940,-0.666,0.308,-0.597,124.954,-66.855,38.244,Bye
0,1188,851,859,817,875,930,-0.670,0.327,-0.610,149.107,-77.328,62.008,Bye
0,1192,857,851,816,871,931,-0.674,0.353,-0.618,166.611,-87.038,79.321,Bye
0,1196,845,829,804,866,909,-0.693,0.375,-0.653,176.038,-95.389,89.321,Bye
0,1200,866,849,817,867,939,-0.696,0.399,-0.679,178.756,-101.298,91.107,Bye
0,1204,865,854,819,871,930,-0.701,0.421,-0.702,174.641,-104.870,85.534,Bye
0,1208,867,862,816,880,931,-0.706,0.443,-0.733,163.824,-106.206,74.588,Bye
0,1212,863,862,815,870,931,-0.699,0.468,-0.742,146.748,-104.618,58.962,Bye
0,1216,863,850,818,869,937,-0.702,0.473,-0.759,128.061,-101.656,38.374,Bye
0,1220,858,862,821,878,937,-0.689,0.484,-0.755,105.565,-96.718,15.015,Bye
0,1224,873,855,816,873,931,-0.678,0.479,-0.747,84.504,-93.046,-9.565,Bye
0,1228,874,860,831,880,927,-0.666,0.486,-0.731,61.214,-88.130,-34.840,Bye
0,1232,867,852,822,869,929,-0.630,0.474,-0.704,42.611,-81.489,-55.710,Bye
0,1236,859,852,814,873,931,-0.609,0.458,-0.682,28.260,-75.366,-71.252,Bye
0,1240,867,861,827,866,939,-0.591,0.459,-0.685,19.305,-68.771,-79.481,Bye
0,1244,860,853,816,870,931,-0.578,0.441,-0.672,13.473,-60.344,-84.573,Bye
0,1248,863,857,816,867,934,-0.576,0.451,-0.675,13.405,-52.802,-86.374,Bye
0,1252,874,860,817,874,934,-0.575,0.451,-0.681,14.389,-45.191,-83.580,Bye
0,1256,848,854,816,871,934,-0.581,0.455,-0.694,17.298,-35.962,-77.344,Bye
0,1260,859,856,826,872,940,-0.585,0.457,-0.711,21.046,-26.977,-68.275,Bye
0,1264,875,855,816,875,927,-0.613,0.459,-0.719,26.626,-19.176,-58.252,Bye
0,1268,859,860,811,867,933,-0.630,0.470,-0.735,32.634,-13.153,-48.824,Bye
0,1272,861,861,817,874,935,-0.655,0.470,-0.747,38.458,-9.908,-39.962,Bye
0,1276,865,858,817,872,938,-0.675,0.481,-0.746,44.664,-11.092,-30.115,Bye
0,1280,863,854,816,872,931,-0.700,0.482,-0.740,49.496,-14.885,-24.580,Bye
0,1284,870,856,816,870,931,-0.711,0.486,-0.719,53.809,-20.366,-18.840,Bye
0,1288,858,855,816,874,939,-0.720,0.492,-0.723,57.985,-27.779,-11.160,Bye
0,1292,862,854,814,873,925,-0.725,0.511,-0.724,60.756,-35.840,-3.191,Bye
0,1296,875,853,818,874,927,-0.716,0.521,-0.713,60.435,-42.824,3.366,Bye
0,1300,874,867,817,876,935,-0.727,0.525,-0.729,57.725,-51.046,7.534,Bye
0,1304,863,865,818,874,931,-0.722,0.542,-0.726,52.145,-59.397,9.794,Bye
0,1308,866,862,822,875,937,-0.711,0.543,-0.724,44.656,-65.290,9.931,Bye
0,1312,873,865,813,876,935,-0.690,0.542,-0.726,36.588,-68.992,9.389,Bye
0,1316,867,863,813,871,931,-0.667,0.533,-0.728,28.855,-70.695,10.351,Bye
0,1320,866,855,816,865,926,-0.644,0.525,-0.713,22.076,-70.618,12.168,Bye
0,1324,866,860,817,874,942,-0.604,0.511,-0.693,18.176,-65.527,12.679,Bye
0,1328,867,861,815,873,938,-0.569,0.497,-0.681,15.176,-59.863,13.672,Bye
0,1332,868,849,821,867,935,-0.545,0.481,-0.662,14.053,-52.336,14.176,Bye
0,1336,861,863,816,875,927,-0.525,0.468,-0.644,11.702,-45.580,12.489,Bye
0,1340,871,866,815,871,929,-0.500,0.462,-0.631,10.015,-36.321,9.840,Bye
0,1344,861,859,816,874,944,-0.496,0.463,-0.612,9.405,-28.893,10.473,Bye
0,1348,867,858,816,874,929,-0.479,0.454,-0.600,9.763,-19.542,15.641,Bye
0,1352,863,863,818,875,941,-0.472,0.460,-0.589,10.015,-9.466,23.153,Bye
0,1356,867,855,827,866,925,-0.475,0.469,-0.601,9.832,1.183,31.763,Bye
0,1360,861,865,825,880,926,-0.486,0.480,-0.605,6.359,10.908,39.473,Bye
0,1364,864,862,820,875,933,-0.499,0.487,-0.610,0.977,20.702,42.489,Bye
0,1368,861,867,816,870,929,-0.513,0.486,-0.628,-6.115,29.427,41.092,Bye
0,1372,864,869,820,870,938,-0.545,0.489,-0.646,-14.740,37.443,37.779,Bye
0,1376,858,855,816,870,935,-0.563,0.489,-0.663,-24.580,45.870,32.740,Bye
0,1380,870,851,810,867,939,-0.577,0.487,-0.686,-33.473,54.679,26.718,Bye
0,1384,858,859,817,871,941,-0.608,0.489,-0.698,-42.817,61.855,22.176,Bye
0,1388,864,862,817,871,940,-0.625,0.484,-0.715,-52.405,66.794,16.481,Bye
0,1392,853,855,816,875,932,-0.646,0.477,-0.732,-60.206,72.176,6.580,Bye
0,1396,858,859,817,877,931,-0.668,0.480,-0.727,-68.191,72.458,-0.534,Bye
0,1400,863,857,816,872,935,-0.681,0.480,-0.706,-75.588,71.664,-5.679,Bye
0,1404,868,865,817,874,939,-0.683,0.469,-0.703,-79.450,70.153,-8.145,Bye
0,1408,864,856,813,873,939,-0.691,0.466,-0.696,-82.046,66.344,-5.351,Bye
0,1412,864,862,816,878,930,-0.688,0.469,-0.686,-84.389,61.977,0.130,Bye
0,1416,855,864,825,874,939,-0.688,0.458,-0.681,-83.779,55.557,6.969,Bye
0,1420,863,861,815,871,932,-0.698,0.454,-0.681,-82.412,48.344,14.687,Bye
0,1424,867,861,817,875,929,-0.690,0.450,-0.676,-80.779,42.221,23.382,Bye
0,1428,853,857,816,870,929,-0.686,0.432,-0.681,-77.832,37.588,31.084,Bye
0,1432,862,848,821,875,931,-0.679,0.420,-0.687,-73.130,34.908,37.763,Bye
0,1436,863,861,816,870,933,-0.673,0.422,-0.693,-67.489,34.198,43.328,Bye
0,1440,849,875,810,867,943,-0.666,0.406,-0.699,-63.290,36.916,46.992,Bye
0,1444,862,862,818,869,935,-0.656,0.405,-0.709,-59.351,40.221,49.985,Bye
0,1448,862,866,818,875,923,-0.655,0.399,-0.713,-56.321,44.687,51.756,Bye
0,1452,862,868,822,874,934,-0.658,0.394,-0.721,-55.015,50.298,51.687,Bye
0,1456,863,861,816,873,934,-0.655,0.391,-0.704,-53.733,54.878,50.328,Bye
0,1460,867,861,818,869,931,-0.659,0.382,-0.688,-51.496,57.084,47.924,Bye
0,1464,850,871,816,873,944,-0.652,0.371,-0.666,-49.687,59.878,45.679,Bye
0,1468,859,852,823,877,935,-0.646,0.372,-0.647,-48.740,60.931,44.527,Bye
0,1472,863,859,817,873,931,-0.651,0.370,-0.636,-47.458,60.382,44.626,Bye
0,1476,862,855,816,873,933,-0.644,0.368,-0.624,-46.397,59.519,44.229,Bye
0,1480,863,861,816,870,933,-0.647,0.361,-0.618,-46.115,58.206,44.336,Bye
0,1484,859,862,821,874,934,-0.645,0.367,-0.622,-46.618,57.237,45.099,Bye
0,1488,859,864,827,866,933,-0.647,0.358,-0.626,-47.679,56.885,45.374,Bye
0,1492,864,860,815,874,935,-0.651,0.352,-0.636,-49.351,57.237,44.565,Bye
0,1496,858,857,816,875,927,-0.655,0.351,-0.642,-51.168,57.725,42.122,Bye
0,1500,861,857,818,871,934,-0.664,0.345,-0.644,-52.466,58.855,38.298,Bye
0,1504,848,872,819,869,944,-0.655,0.332,-0.648,-51.924,60.206,33.809,Bye
0,1508,862,867,816,871,925,-0.661,0.321,-0.646,-50.389,61.366,30.198,Bye
0,1512,873,862,817,871,936,-0.659,0.323,-0.641,-48.046,63.351,27.450,Bye
0,1516,863,863,816,873,931,-0.657,0.317,-0.643,-45.221,65.611,25.206,Bye
0,1520,857,857,821,875,935,-0.670,0.317,-0.646,-42.122,67.206,23.145,Bye
0,1524,859,853,819,867,935,-0.686,0.321,-0.649,-40.542,67.656,20.969,Bye
0,1528,865,864,817,873,933,-0.697,0.322,-0.650,-40.061,66.847,18.458,Bye
0,1532,852,871,813,873,934,-0.712,0.331,-0.655,-40.130,64.221,15.695,Bye
0,1536,865,862,818,875,930,-0.732,0.330,-0.663,-40.282,60.496,13.740,Bye
0,1540,864,863,820,875,933,-0.736,0.335,-0.672,-40.168,56.008,12.863,Bye
0,1544,855,865,816,870,944,-0.740,0.328,-0.675,-38.763,51.733,12.275,Bye
0,1548,861,866,813,864,934,-0.739,0.323,-0.665,-36.206,47.023,11.473,Bye
0,1552,866,863,813,869,930,-0.740,0.316,-0.671,-32.992,43.229,10.366,Bye
0,1556,855,861,822,878,935,-0.734,0.314,-0.667,-29.260,39.649,8.130,Bye
0,1560,856,867,816,874,935,-0.725,0.304,-0.659,-24.710,36.679,4.679,Bye
0,1564,863,862,821,876,941,-0.720,0.298,-0.653,-19.443,33.802,1.496,Bye
0,1568,870,858,819,874,930,-0.710,0.300,-0.643,-14.168,31.015,-0.771,Bye
0,1572,858,860,817,869,932,-0.707,0.296,-0.639,-9.176,27.771,-0.878,Bye
0,1576,874,850,820,869,933,-0.711,0.306,-0.618,-4.069,24.359,0.107,Bye
0,1580,863,855,821,875,933,-0.697,0.305,-0.624,0.496,20.160,1.786,Bye
0,1584,871,870,816,876,940,-0.699,0.309,-0.609,4.695,15.450,3.603,Bye
0,1588,863,869,816,875,935,-0.689,0.301,-0.587,8.954,10.382,5.405,Bye
0,1592,866,867,816,870,933,-0.680,0.299,-0.581,13.511,5.855,7.145,Bye
0,1596,859,855,809,871,934,-0.665,0.296,-0.574,18.679,2.534,8.840,Bye
0,1600,863,868,823,871,927,-0.646,0.290,-0.562,23.962,1.183,9.985,Bye
0,1604,862,858,811,859,932,-0.634,0.287,-0.563,29.359,0.947,10.412,Bye
0,1608,866,866,817,873,944,-0.630,0.284,-0.569,34.450,2.344,9.260,Bye
0,1612,859,858,819,871,932,-0.629,0.294,-0.570,38.282,4.275,7.061,Bye
0,1616,856,855,806,870,935,-0.629,0.303,-0.576,40.450,6.252,4.282,Bye
0,1620,860,865,818,870,925,-0.646,0.312,-0.596,41.351,8.031,1.618,Bye
0,1624,859,863,816,874,934,-0.654,0.325,-0.610,41.458,9.641,-1.473,Bye
0,1628,862,862,819,874,929,-0.671,0.333,-0.622,40.618,10.542,-4.328,Bye
0,1632,869,867,814,869,944,-0.674,0.354,-0.633,39.328,10.962,-7.145,Bye
0,1636,864,862,816,875,934,-0.694,0.351,-0.635,37.588,11.221,-9.649,Bye
0,1640,859,858,823,877,927,-0.707,0.366,-0.648,34.481,11.214,-13.191,Bye
0,1644,869,870,820,873,932,-0.717,0.366,-0.662,31.618,10.450,-18.595,Bye
0,1648,863,861,816,873,935,-0.735,0.364,-0.671,28.611,8.771,-25.000,Bye
0,1652,865,864,818,874,939,-0.746,0.372,-0.685,25.672,6.534,-32.099,Bye
0,1656,859,864,819,870,935,-0.749,0.375,-0.676,23.458,3.298,-38.855,Bye
0,1660,863,862,816,874,929,-0.752,0.381,-0.676,22.176,-0.687,-44.008,Bye
0,1664,858,865,817,869,935,-0.753,0.379,-0.672,22.656,-6.275,-47.847,Bye
0,1668,858,860,822,870,938,-0.753,0.385,-0.664,24.115,-12.046,-49.366,Bye
0,1672,863,861,819,874,934,-0.740,0.389,-0.651,26.924,-18.290,-48.573,Bye
0,1676,861,859,817,876,939,-0.736,0.382,-0.648,30.595,-24.870,-46.023,Bye
0,1680,862,861,823,878,933,-0.723,0.391,-0.638,34.595,-30.244,-42.435,Bye
0,1684,866,865,817,874,936,-0.716,0.395,-0.633,38.489,-35.763,-37.771,Bye
0,1688,868,865,816,873,934,-0.702,0.391,-0.630,42.947,-41.260,-32.947,Bye
0,1692,865,873,817,867,932,-0.690,0.392,-0.620,47.267,-45.855,-28.145,Bye
0,1696,859,859,817,869,935,-0.679,0.398,-0.615,52.145,-49.603,-23.206,Bye
0,1700,863,862,824,871,924,-0.665,0.393,-0.608,57.733,-52.260,-17.954,Bye
0,1704,865,861,816,871,934,-0.656,0.398,-0.626,62.756,-53.901,-12.534,Bye
0,1708,848,839,805,874,912,-0.642,0.400,-0.617,67.679,-53.756,-7.687,Bye
0,1712,863,861,822,873,942,-0.633,0.403,-0.616,71.473,-52.366,-4.069,Bye
0,1716,871,856,813,866,944,-0.627,0.412,-0.616,72.885,-50.160,-2.565,Bye
0,1720,863,863,818,873,934,-0.632,0.411,-0.615,72.885,-48.466,-3.412,Bye
0,1724,861,860,823,875,935,-0.625,0.428,-0.607,71.282,-46.824,-5.687,Bye
0,1728,859,857,816,870,933,-0.631,0.434,-0.609,67.595,-45.756,-8.527,Bye
0,1732,862,855,825,871,929,-0.636,0.442,-0.608,62.519,-45.824,-10.954,Bye
0,1736,869,853,822,871,931,-0.645,0.452,-0.614,57.466,-46.824,-13.374,Bye
0,1740,852,859,817,871,944,-0.648,0.453,-0.617,52.053,-48.145,-15.786,Bye
0,1744,852,865,816,869,930,-0.646,0.463,-0.616,46.344,-48.519,-17.496,Bye
0,1748,866,861,817,873,933,-0.646,0.473,-0.629,40.374,-48.603,-19.076,Bye
0,1752,854,862,817,874,939,-0.657,0.480,-0.644,34.015,-47.321,-21.481,Bye
0,1756,863,849,818,874,935,-0.662,0.474,-0.670,27.176,-44.992,-25.321,Bye
0,1760,865,859,816,874,931,-0.661,0.472,-0.682,21.053,-41.908,-30.191,Bye
0,1764,851,851,816,874,931,-0.666,0.485,-0.691,16.221,-38.916,-34.634,Bye
0,1768,861,861,816,871,933,-0.667,0.477,-0.692,11.977,-35.496,-37.878,Bye
0,1772,856,865,812,875,942,-0.674,0.481,-0.696,9.534,-32.641,-39.405,Bye
0,1776,865,863,817,874,925,-0.679,0.484,-0.710,8.313,-30.519,-39.351,Bye
0,1780,865,864,821,875,937,-0.692,0.482,-0.711,8.214,-29.084,-37.908,Bye
0,1784,865,868,819,869,935,-0.690,0.488,-0.703,8.336,-29.229,-35.466,Bye
0,1788,852,862,818,873,944,-0.696,0.497,-0.700,8.626,-30.504,-32.626,Bye
0,1792,863,866,813,869,932,-0.704,0.492,-0.695,8.817,-32.916,-28.870,Bye
0,1796,874,855,816,872,922,-0.700,0.491,-0.702,8.740,-36.550,-24.748,Bye
0,1800,871,874,816,875,932,-0.702,0.495,-0.687,9.145,-40.908,-20.458,Bye
0,1804,863,854,824,873,936,-0.696,0.495,-0.680,9.771,-45.557,-15.542,Bye
0,1808,859,863,816,874,938,-0.687,0.495,-0.678,10.015,-50.931,-10.397,Bye
0,1812,863,864,818,873,936,-0.674,0.488,-0.665,10.748,-55.725,-5.107,Bye
0,1816,865,862,819,874,935,-0.659,0.490,-0.652,11.634,-60.481,-0.344,Bye
0,1820,855,857,827,878,940,-0.644,0.479,-0.642,12.519,-63.748,4.038,Bye
0,1824,858,857,815,877,926,-0.624,0.477,-0.629,13.496,-66.153,8.069,Bye
0,1828,865,855,817,873,931,-0.606,0.460,-0.624,14.489,-66.985,11.870,Bye
0,1832,863,860,818,873,934,-0.594,0.469,-0.615,14.779,-65.847,15.710,Bye
0,1836,859,861,817,875,936,-0.578,0.467,-0.617,13.267,-63.550,19.122,Bye
0,1840,848,869,825,867,928,-0.575,0.472,-0.617,10.641,-60.664,21.931,Bye
0,1844,862,861,821,869,931,-0.565,0.478,-0.623,6.519,-56.252,23.282,Bye
0,1848,864,858,827,870,942,-0.569,0.476,-0.624,2.214,-52.267,24.450,Bye
0,1852,855,860,819,873,937,-0.563,0.488,-0.636,-4.267,-45.939,22.672,Bye
0,1856,857,862,817,870,937,-0.568,0.476,-0.655,-11.336,-38.046,19.649,Bye
0,1860,862,863,818,870,932,-0.567,0.474,-0.657,-18.321,-30.313,16.191,Bye
0,1864,859,866,823,877,937,-0.566,0.469,-0.655,-24.489,-22.115,11.344,Bye
0,1868,861,861,821,873,931,-0.561,0.474,-0.667,-30.809,-13.183,5.305,Bye
0,1872,871,858,816,870,943,-0.573,0.462,-0.665,-36.298,-5.344,-0.817,Bye
0,1876,859,861,818,870,934,-0.588,0.465,-0.677,-41.611,0.855,-5.618,Bye
0,1880,858,861,817,876,927,-0.594,0.458,-0.672,-46.023,6.565,-9.985,Bye
0,1884,869,865,823,879,929,-0.611,0.460,-0.677,-49.992,10.740,-12.527,Bye
0,1888,865,858,819,873,925,-0.610,0.464,-0.679,-52.595,12.710,-11.832,Bye
0,1892,861,861,818,874,931,-0.624,0.459,-0.661,-54.351,14.015,-10.496,Bye
0,1896,862,861,815,874,938,-0.617,0.450,-0.667,-54.832,14.664,-8.015,Bye
0,1900,864,863,816,869,931,-0.632,0.451,-0.656,-54.115,12.382,-3.756,Bye
0,1904,863,858,817,871,933,-0.638,0.437,-0.661,-53.550,11.092,-0.031,Bye
0,1908,858,861,816,875,935,-0.636,0.437,-0.659,-52.038,8.275,4.740,Bye
0,1912,870,866,815,873,901,-0.651,0.433,-0.652,-50.687,4.931,8.710,Bye
0,1916,864,865,817,876,942,-0.646,0.433,-0.650,-47.710,1.458,12.595,Bye
0,1920,860,854,811,869,932,-0.645,0.432,-0.671,-45.511,-1.107,16.511,Bye
0,1924,867,864,816,869,933,-0.638,0.424,-0.674,-43.069,-2.130,20.863,Bye
0,1928,865,869,816,871,935,-0.633,0.418,-0.679,-40.779,-2.053,25.084,Bye
0,1932,862,863,820,873,938,-0.635,0.416,-0.683,-38.153,-0.840,27.634,Bye
0,1936,867,865,819,871,930,-0.630,0.411,-0.690,-36.588,1.504,29.878,Bye
0,1940,865,857,816,875,924,-0.622,0.409,-0.690,-35.275,4.969,31.153,Bye
0,1944,855,866,812,874,941,-0.618,0.408,-0.683,-34.328,9.458,32.328,Bye
0,1948,855,853,817,871,934,-0.623,0.406,-0.687,-33.641,14.092,32.924,Bye
0,1952,859,866,819,878,935,-0.621,0.407,-0.689,-33.901,18.595,32.939,Bye
0,1956,867,859,816,871,941,-0.630,0.402,-0.694,-34.718,23.015,32.427,Bye
0,1960,857,863,816,875,934,-0.629,0.403,-0.688,-36.504,26.122,31.221,Bye
0,1964,858,863,817,873,933,-0.643,0.401,-0.695,-38.954,28.847,28.779,Bye
0,1968,874,854,816,872,930,-0.642,0.396,-0.683,-41.748,30.382,25.634,Bye
0,1972,855,858,813,873,928,-0.643,0.392,-0.683,-44.603,30.855,22.427,Bye
0,1976,862,857,816,869,932,-0.649,0.392,-0.687,-47.366,30.626,19.405,Bye
0,1980,866,862,827,875,937,-0.649,0.381,-0.655,-49.351,29.977,16.885,Bye
0,1984,861,863,817,874,925,-0.647,0.376,-0.667,-50.763,29.374,15.679,Bye
0,1988,859,867,816,873,934,-0.641,0.371,-0.661,-51.145,29.153,15.046,Bye
0,1992,857,863,817,867,934,-0.636,0.372,-0.655,-50.740,29.389,14.802,Bye
0,1996,850,867,809,877,932,-0.642,0.364,-0.663,-49.817,30.290,15.031,Bye
0,2000,861,855,816,875,937,-0.636,0.359,-0.660,-48.534,31.573,15.542,Bye
0,2004,873,862,818,868,930,-0.628,0.352,-0.659,-46.557,33.374,16.092,Bye
0,2008,854,859,820,871,928,-0.629,0.353,-0.663,-44.282,35.435,17.160,Bye
0,2012,864,862,816,870,940,-0.625,0.344,-0.666,-41.649,37.168,18.229,Bye
0,2016,861,867,822,875,932,-0.629,0.344,-0.647,-38.832,38.840,19.389,Bye
0,2020,865,859,821,867,935,-0.633,0.337,-0.646,-35.740,40.061,20.794,Bye
0,2024,865,859,819,873,935,-0.632,0.339,-0.647,-32.756,40.321,21.977,Bye
0,2028,873,863,813,874,934,-0.644,0.334,-0.637,-29.924,39.763,22.595,Bye
0,2032,855,866,816,874,928,-0.644,0.324,-0.643,-27.183,38.870,22.649,Bye
0,2036,873,865,818,869,933,-0.642,0.333,-0.649,-23.344,38.176,22.931,Bye
0,2040,861,850,818,873,933,-0.648,0.326,-0.636,-20.389,38.489,24.015,Bye
0,2044,861,861,816,873,938,-0.639,0.331,-0.655,-17.298,39.443,24.977,Bye
0,2048,861,858,816,873,942,-0.645,0.331,-0.662,-14.695,40.725,25.053,Bye
0,2052,855,858,817,871,931,-0.656,0.334,-0.659,-13.427,42.336,23.847,Bye
0,2056,862,867,813,875,934,-0.664,0.331,-0.664,-12.969,43.466,21.473,Bye
0,2060,864,861,816,870,937,-0.675,0.338,-0.683,-12.931,43.794,18.725,Bye
0,2064,867,865,820,867,933,-0.685,0.342,-0.683,-12.366,43.832,16.122,Bye
0,2068,861,855,816,872,938,-0.684,0.337,-0.681,-11.473,43.679,13.824,Bye
0,2072,864,863,816,864,939,-0.689,0.330,-0.690,-10.672,43.344,11.786,Bye
0,2076,864,857,816,869,937,-0.695,0.337,-0.681,-9.649,42.573,9.412,Bye
0,2080,858,854,813,865,939,-0.694,0.337,-0.669,-8.588,41.183,6.168,Bye
0,2084,859,857,821,870,943,-0.703,0.334,-0.682,-8.191,39.267,2.153,Bye
0,2088,864,857,815,871,930,-0.708,0.333,-0.675,-7.443,36.626,-1.305,Bye
0,2092,863,863,815,877,935,-0.704,0.337,-0.667,-6.137,33.908,-3.969,Bye
0,2096,863,866,816,880,929,-0.702,0.331,-0.661,-3.618,31.267,-5.466,Bye
0,2100,864,865,823,871,931,-0.692,0.337,-0.662,-0.443,28.962,-5.740,Bye
0,2104,865,860,818,867,929,-0.690,0.332,-0.656,3.115,27.107,-5.038,Bye
0,2108,874,858,816,870,941,-0.681,0.337,-0.650,6.695,25.290,-3.779,Bye
0,2112,863,863,817,873,930,-0.686,0.341,-0.654,10.122,23.099,-3.290,Bye
0,2116,862,864,807,873,935,-0.682,0.331,-0.639,13.802,21.206,-3.015,Bye
0,2120,859,863,818,871,935,-0.676,0.328,-0.644,17.756,19.840,-2.588,Bye
0,2124,862,863,820,870,943,-0.667,0.336,-0.648,22.214,18.511,-1.397,Bye
0,2128,865,862,819,875,937,-0.667,0.327,-0.638,27.382,17.779,-0.168,Bye
0,2132,863,858,807,875,933,-0.659,0.332,-0.642,32.084,17.702,0.588,Bye
0,2136,853,858,817,874,934,-0.651,0.340,-0.622,35.748,17.458,1.038,Bye
0,2140,870,857,819,869,929,-0.658,0.335,-0.625,38.618,16.336,0.015,Bye
0,2144,871,867,813,875,931,-0.657,0.350,-0.612,40.771,14.893,-1.893,Bye
0,2148,862,860,816,873,929,-0.665,0.343,-0.613,42.145,12.893,-4.031,Bye
0,2152,860,861,820,868,929,-0.659,0.351,-0.612,43.084,10.641,-5.603,Bye
0,2156,865,863,817,877,939,-0.661,0.357,-0.608,44.008,8.893,-6.611,Bye
0,2160,858,851,819,871,930,-0.651,0.364,-0.617,45.031,7.550,-7.290,Bye
0,2164,863,863,821,870,935,-0.656,0.365,-0.611,45.702,6.687,-8.344,Bye
0,2168,859,859,820,870,934,-0.663,0.379,-0.626,45.664,6.511,-9.802,Bye
0,2172,858,859,818,873,935,-0.663,0.378,-0.640,44.855,6.840,-11.824,Bye
0,2176,861,866,824,878,941,-0.669,0.384,-0.639,43.374,7.481,-14.748,Bye
0,2180,873,850,819,873,935,-0.679,0.392,-0.648,41.794,7.748,-18.443,Bye
0,2184,865,867,816,874,935,-0.682,0.394,-0.655,40.275,7.885,-21.954,Bye
0,2188,865,863,816,876,931,-0.682,0.396,-0.652,39.038,8.000,-25.076,Bye
0,2192,863,861,813,870,929,-0.686,0.397,-0.654,38.321,7.649,-27.504,Bye
0,2196,873,869,813,875,930,-0.681,0.397,-0.650,38.542,6.725,-29.389,Bye
0,2200,863,861,822,871,937,-0.689,0.405,-0.644,38.786,5.237,-30.725,Bye
0,2204,857,864,812,877,942,-0.685,0.409,-0.648,39.298,3.198,-31.260,Bye
0,2208,863,863,818,872,936,-0.691,0.411,-0.638,39.840,0.710,-31.145,Bye
0,2212,863,864,816,873,926,-0.691,0.423,-0.633,40.641,-2.260,-30.450,Bye
0,2216,859,862,819,874,935,-0.681,0.424,-0.634,41.687,-5.496,-28.763,Bye
0,2220,858,864,819,870,926,-0.687,0.427,-0.625,42.847,-8.229,-25.832,Bye
0,2224,869,868,821,877,937,-0.681,0.429,-0.636,43.863,-11.351,-22.382,Bye
0,2228,867,867,816,870,939,-0.675,0.433,-0.628,45.137,-13.786,-18.771,Bye
0,2232,859,859,820,871,938,-0.672,0.430,-0.640,46.137,-15.939,-15.817,Bye
0,2236,865,863,825,871,926,-0.667,0.441,-0.643,47.130,-17.756,-13.244,Bye
0,2240,862,865,818,869,929,-0.666,0.441,-0.643,47.809,-18.969,-10.885,Bye
0,2244,858,864,818,874,943,-0.662,0.443,-0.643,48.473,-19.634,-9.168,Bye
0,2248,865,859,819,878,939,-0.658,0.445,-0.630,48.557,-19.649,-7.824,Bye
0,2252,859,864,817,873,933,-0.654,0.440,-0.634,47.557,-19.756,-7.000,Bye
0,2256,865,864,819,871,935,-0.661,0.451,-0.639,45.809,-19.855,-7.008,Bye
0,2260,858,865,816,869,927,-0.664,0.456,-0.639,43.382,-20.275,-7.168,Bye
0,2264,857,867,816,871,943,-0.664,0.467,-0.646,40.145,-21.374,-7.718,Bye
0,2268,862,869,828,874,935,-0.662,0.468,-0.641,36.153,-21.969,-7.916,Bye
0,2272,870,861,819,876,927,-0.664,0.471,-0.633,32.115,-22.519,-8.282,Bye
0,2276,863,866,817,874,938,-0.658,0.469,-0.643,28.962,-23.351,-8.763,Bye
0,2280,866,862,822,871,932,-0.651,0.470,-0.641,25.603,-23.382,-9.183,Bye
0,2284,857,871,817,875,929,-0.647,0.471,-0.641,22.313,-22.573,-9.198,Bye
0,2288,862,863,816,870,934,-0.648,0.475,-0.637,18.992,-21.595,-9.092,Bye
0,2292,854,861,819,877,934,-0.644,0.468,-0.642,16.023,-20.656,-9.786,Bye
0,2296,862,861,826,874,935,-0.648,0.477,-0.654,12.687,-19.359,-10.794,Bye
0,2300,865,856,823,873,929,-0.643,0.480,-0.644,9.237,-18.985,-11.153,Bye
0,2304,865,868,821,877,935,-0.651,0.475,-0.643,6.557,-18.779,-11.122,Bye
0,2308,860,861,821,871,931,-0.642,0.474,-0.638,4.855,-18.969,-10.275,Bye
0,2312,866,863,817,865,922,-0.652,0.472,-0.644,3.519,-18.962,-8.573,Bye
0,2316,862,870,821,868,933,-0.649,0.476,-0.646,2.450,-19.321,-6.321,Bye
0,2320,859,861,811,873,933,-0.650,0.471,-0.635,1.176,-19.168,-4.000,Bye
0,2324,867,863,822,873,942,-0.655,0.475,-0.638,-1.145,-19.603,-2.168,Bye
0,2328,853,863,820,873,934,-0.651,0.479,-0.645,-4.107,-20.687,-1.496,Bye
0,2332,871,850,819,871,936,-0.663,0.478,-0.645,-6.947,-22.328,-1.252,Bye
0,2336,866,863,817,874,933,-0.661,0.478,-0.659,-9.954,-23.870,-0.786,Bye
0,2340,866,863,821,879,929,-0.657,0.474,-0.650,-12.679,-24.992,0.550,Bye
0,2344,863,863,823,870,935,-0.652,0.479,-0.655,-14.107,-25.893,1.992,Bye
0,2348,849,869,831,880,925,-0.653,0.473,-0.658,-15.679,-25.992,3.076,Bye
0,2352,855,859,829,876,934,-0.655,0.474,-0.663,-17.397,-25.718,4.053,Bye
0,2356,864,856,816,874,932,-0.650,0.471,-0.667,-19.588,-24.870,4.008,Bye
0,2360,866,863,816,871,935,-0.653,0.470,-0.660,-21.481,-23.969,3.618,Bye
0,2364,865,861,816,874,931,-0.650,0.468,-0.664,-23.664,-23.351,2.664,Bye
0,2368,861,867,820,877,933,-0.642,0.459,-0.656,-26.092,-23.038,2.168,Bye
0,2372,869,863,817,871,929,-0.646,0.460,-0.660,-28.183,-23.130,2.244,Bye
0,2376,865,865,816,875,927,-0.650,0.454,-0.661,-30.046,-23.542,2.901,Bye
0,2380,864,862,818,869,944,-0.643,0.461,-0.652,-31.405,-24.351,3.985,Bye
0,2384,862,853,816,874,930,-0.643,0.455,-0.656,-32.641,-25.237,5.420,Bye
0,2388,863,854,807,875,938,-0.635,0.449,-0.657,-33.687,-25.458,7.061,Bye
0,2392,857,868,817,869,931,-0.633,0.449,-0.652,-34.344,-24.855,8.786,Bye
0,2396,864,863,818,869,930,-0.626,0.441,-0.651,-34.519,-23.748,10.099,Bye
0,2400,862,862,814,874,935,-0.622,0.438,-0.656,-34.786,-21.840,10.450,Bye
0,2404,863,864,827,873,928,-0.617,0.428,-0.654,-35.252,-19.710,10.618,Bye
0,2408,863,857,816,874,939,-0.620,0.427,-0.653,-35.382,-17.595,10.832,Bye
0,2412,857,873,815,872,935,-0.622,0.434,-0.649,-35.298,-15.641,11.618,Bye
0,2416,862,863,829,870,939,-0.623,0.428,-0.656,-35.382,-13.580,13.038,Bye
0,2420,853,856,816,875,936,-0.628,0.427,-0.658,-35.084,-11.351,14.992,Bye
0,2424,850,843,788,868,912,-0.629,0.422,-0.665,-34.664,-9.313,16.466,Bye
0,2428,863,864,822,870,944,-0.626,0.421,-0.668,-34.908,-7.588,18.061,Bye
0,2432,864,863,816,869,927,-0.633,0.414,-0.670,-35.550,-5.855,18.817,Bye
0,2436,865,863,819,871,934,-0.639,0.424,-0.668,-36.336,-4.321,18.885,Bye
0,2440,861,863,816,869,929,-0.638,0.416,-0.667,-37.412,-3.389,18.107,Bye
0,2444,860,858,820,873,937,-0.639,0.415,-0.664,-38.779,-3.015,17.328,Bye
0,2448,866,867,822,876,929,-0.646,0.412,-0.656,-40.427,-3.031,16.298,Bye
0,2452,864,860,827,876,930,-0.644,0.407,-0.667,-42.344,-3.725,15.412,Bye
0,2456,855,865,818,870,929,-0.644,0.408,-0.654,-43.733,-4.779,14.336,Bye
0,2460,866,867,816,867,933,-0.654,0.401,-0.658,-44.901,-6.023,13.153,Bye
0,2464,868,862,822,874,935,-0.647,0.393,-0.656,-46.206,-7.107,12.107,Bye
0,2468,862,870,820,874,934,-0.650,0.392,-0.666,-46.863,-7.313,11.634,Bye
0,2472,869,859,817,874,931,-0.646,0.394,-0.668,-47.015,-7.206,11.443,Bye
0,2476,854,867,820,873,930,-0.643,0.382,-0.685,-46.939,-5.763,10.901,Bye
0,2480,866,869,822,871,935,-0.645,0.383,-0.679,-46.832,-3.885,10.649,Bye
0,2484,859,859,815,866,940,-0.643,0.383,-0.684,-46.298,-1.855,10.458,Bye
0,2488,859,862,817,869,938,-0.642,0.378,-0.683,-45.282,0.130,9.977,Bye
0,2492,867,865,819,878,931,-0.646,0.376,-0.684,-43.931,2.802,10.229,Bye
0,2496,862,862,822,877,931,-0.648,0.370,-0.698,-42.176,5.061,10.710,Bye
0,2500,863,862,822,869,934,-0.646,0.365,-0.689,-39.962,7.069,10.954,Bye
0,2504,861,860,829,869,941,-0.652,0.371,-0.693,-37.840,8.656,11.321,Bye
0,2508,865,866,818,874,930,-0.653,0.364,-0.688,-35.954,9.443,11.275,Bye
0,2512,869,871,814,875,937,-0.657,0.364,-0.678,-33.832,9.618,11.244,Bye
0,2516,854,863,819,870,930,-0.659,0.363,-0.668,-32.313,8.885,10.985,Bye
0,2520,861,859,825,867,929,-0.653,0.359,-0.667,-30.626,7.832,11.229,Bye
0,2524,863,863,818,873,938,-0.657,0.355,-0.663,-28.702,6.122,11.496,Bye
0,2528,843,839,797,867,933,-0.651,0.350,-0.660,-26.779,4.198,11.771,Bye
0,2532,869,863,817,869,937,-0.651,0.344,-0.655,-24.771,2.573,12.611,Bye
0,2536,865,857,810,869,934,-0.643,0.346,-0.649,-22.809,1.252,13.412,Bye
0,2540,862,858,829,875,933,-0.645,0.347,-0.644,-20.443,0.053,13.420,Bye
0,2544,852,863,820,879,935,-0.631,0.341,-0.646,-18.130,-0.580,13.664,Bye
0,2548,861,862,820,871,926,-0.620,0.341,-0.643,-15.954,-0.374,13.649,Bye
0,2552,864,864,816,873,931,-0.619,0.333,-0.633,-13.603,0.435,13.885,Bye
0,2556,857,871,816,873,933,-0.609,0.334,-0.635,-10.931,2.168,13.855,Bye
0,2560,863,863,822,876,931,-0.612,0.328,-0.639,-8.053,4.466,13.573,Bye
0,2564,857,861,817,874,929,-0.602,0.330,-0.634,-5.489,7.313,13.672,Bye
0,2568,865,861,827,870,930,-0.610,0.327,-0.632,-3.015,10.435,13.153,Bye
0,2572,855,861,816,875,937,-0.604,0.328,-0.644,-1.023,13.336,12.481,Bye
0,2576,858,866,819,875,930,-0.604,0.336,-0.646,0.084,16.489,11.664,Bye
0,2580,861,863,817,870,932,-0.627,0.339,-0.653,0.489,19.374,10.298,Bye
0,2584,851,863,816,875,934,-0.627,0.344,-0.664,0.519,21.626,8.046,Bye
0,2588,849,861,817,873,935,-0.637,0.342,-0.673,0.137,23.183,5.466,Bye
0,2592,861,863,821,877,927,-0.643,0.348,-0.672,-0.504,24.740,2.710,Bye
0,2596,864,861,819,870,929,-0.658,0.350,-0.672,-0.809,25.756,-0.282,Bye
0,2600,864,867,817,875,923,-0.664,0.354,-0.682,-1.008,26.260,-3.420,Bye
0,2604,855,857,823,873,940,-0.677,0.347,-0.691,-0.855,26.580,-6.702,Bye
0,2608,856,870,814,871,929,-0.684,0.348,-0.688,-0.565,26.137,-9.725,Bye
0,2612,866,864,817,871,931,-0.687,0.355,-0.686,0.282,25.542,-12.786,Bye
0,2616,862,862,820,867,940,-0.682,0.354,-0.684,1.626,23.695,-15.695,Bye
0,2620,865,866,816,873,939,-0.679,0.352,-0.684,3.534,21.443,-17.061,Bye
0,2624,863,863,816,877,931,-0.684,0.351,-0.673,6.519,19.031,-17.427,Bye
0,2628,857,865,814,877,930,-0.674,0.348,-0.666,10.305,15.824,-16.229,Bye
0,2632,863,862,823,875,944,-0.674,0.353,-0.655,15.229,12.748,-14.153,Bye
0,2636,857,852,824,873,931,-0.666,0.357,-0.654,20.481,9.824,-10.611,Bye
0,2640,861,875,817,871,929,-0.664,0.352,-0.637,25.092,7.611,-6.618,Bye
0,2644,876,855,818,873,934,-0.659,0.354,-0.649,29.328,5.458,-3.298,Bye
0,2648,862,864,820,869,932,-0.655,0.356,-0.636,33.061,3.015,-0.366,Bye
0,2652,863,858,819,870,933,-0.647,0.360,-0.650,36.221,1.641,1.679,Bye
0,2656,861,863,818,867,939,-0.648,0.370,-0.643,39.000,1.153,3.649,Bye
0,2660,860,865,823,867,931,-0.643,0.363,-0.646,42.473,1.260,5.221,Bye
0,2664,861,864,818,872,932,-0.639,0.370,-0.659,45.313,3.008,6.450,Bye
0,2668,866,863,816,870,930,-0.640,0.373,-0.650,47.015,5.756,6.824,Bye
0,2672,855,867,817,876,921,-0.645,0.376,-0.662,48.244,8.649,5.634,Bye
0,2676,871,859,817,871,935,-0.641,0.379,-0.666,48.427,11.557,2.863,Bye
0,2680,865,867,811,873,938,-0.648,0.391,-0.664,47.099,14.710,-0.466,Bye
0,2684,861,862,811,877,937,-0.653,0.398,-0.671,44.947,16.397,-4.351,Bye
0,2688,862,859,821,870,931,-0.655,0.395,-0.662,42.679,17.031,-8.405,Bye
0,2692,865,866,817,870,931,-0.659,0.405,-0.650,40.046,16.840,-11.733,Bye
0,2696,854,863,816,869,935,-0.667,0.410,-0.646,37.397,15.092,-14.076,Bye
0,2700,857,863,823,877,933,-0.660,0.419,-0.640,34.634,12.740,-15.557,Bye
0,2704,862,871,816,870,931,-0.661,0.415,-0.633,32.450,9.771,-16.847,Bye
0,2708,861,862,816,870,931,-0.661,0.412,-0.620,30.450,7.076,-18.069,Bye
0,2712,851,849,811,871,922,-0.652,0.416,-0.625,28.924,4.641,-18.985,Bye
0,2716,859,863,816,874,938,-0.660,0.412,-0.629,27.855,2.947,-19.496,Bye
0,2720,857,863,816,874,932,-0.644,0.419,-0.636,26.931,2.115,-19.779,Bye
0,2724,863,856,820,872,930,-0.646,0.416,-0.640,26.718,1.748,-19.817,Bye
0,2728,864,862,825,870,930,-0.635,0.417,-0.629,27.588,1.901,-19.145,Bye
0,2732,840,841,789,869,912,-0.631,0.415,-0.633,29.069,3.008,-18.076,Bye
0,2736,865,865,823,867,933,-0.628,0.410,-0.624,30.901,4.779,-15.763,Bye
0,2740,867,862,820,875,944,-0.629,0.422,-0.646,33.122,6.511,-13.198,Bye
0,2744,863,862,816,874,935,-0.634,0.418,-0.642,35.626,8.580,-11.183,Bye
0,2748,864,859,818,873,932,-0.633,0.435,-0.640,37.351,10.679,-8.672,Bye
0,2752,859,859,815,870,928,-0.642,0.439,-0.645,38.267,11.962,-6.702,Bye
0,2756,861,862,818,874,935,-0.645,0.438,-0.649,38.527,12.710,-5.382,Bye
0,2760,865,853,821,871,931,-0.659,0.440,-0.650,37.534,12.763,-4.466,Bye
0,2764,863,863,816,866,934,-0.668,0.454,-0.655,35.718,12.229,-3.863,Bye
0,2768,866,860,816,873,929,-0.684,0.459,-0.659,33.366,10.595,-3.725,Bye
0,2772,853,865,820,871,932,-0.680,0.467,-0.664,30.687,8.282,-4.534,Bye
0,2776,860,862,815,874,931,-0.682,0.466,-0.666,27.450,6.031,-5.901,Bye
0,2780,861,858,827,873,933,-0.697,0.465,-0.667,23.901,4.053,-7.885,Bye
0,2784,860,858,818,871,927,-0.686,0.471,-0.667,20.542,1.435,-10.137,Bye
0,2788,857,865,816,877,941,-0.690,0.468,-0.666,17.244,-1.122,-12.893,Bye
0,2792,861,863,816,874,927,-0.686,0.470,-0.664,13.969,-3.550,-15.565,Bye
0,2796,863,863,821,877,942,-0.685,0.470,-0.661,10.840,-5.786,-17.076,Bye
0,2800,873,859,818,870,933,-0.679,0.470,-0.659,8.557,-8.305,-17.611,Bye
0,2804,865,855,822,870,931,-0.670,0.462,-0.650,7.076,-10.748,-17.260,Bye
0,2808,859,867,825,874,940,-0.663,0.459,-0.640,6.237,-12.603,-15.649,Bye
0,2812,860,864,815,875,933,-0.651,0.469,-0.634,5.809,-14.031,-12.794,Bye
0,2816,861,865,813,874,944,-0.646,0.459,-0.642,6.107,-14.656,-9.130,Bye
0,2820,863,863,823,873,931,-0.632,0.463,-0.632,6.740,-15.107,-5.802,Bye
0,2824,858,850,832,873,933,-0.632,0.458,-0.627,7.115,-14.565,-2.435,Bye
0,2828,862,863,816,870,926,-0.630,0.457,-0.637,7.863,-13.260,0.885,Bye
0,2832,861,863,816,874,937,-0.621,0.457,-0.631,8.458,-11.321,4.412,Bye
0,2836,866,869,816,871,938,-0.624,0.461,-0.646,8.412,-8.832,7.061,Bye
0,2840,875,861,821,873,939,-0.623,0.462,-0.642,8.015,-6.519,8.954,Bye
0,2844,865,873,822,871,931,-0.628,0.463,-0.650,6.519,-3.542,9.779,Bye
0,2848,866,862,821,871,933,-0.637,0.464,-0.657,4.366,-1.427,9.580,Bye
0,2852,855,854,830,875,938,-0.646,0.459,-0.656,1.672,-0.122,8.626,Bye
0,2856,865,864,821,874,935,-0.654,0.467,-0.658,-1.802,1.061,7.092,Bye
0,2860,854,855,816,875,935,-0.660,0.474,-0.659,-5.763,1.817,5.580,Bye
0,2864,867,867,820,867,930,-0.658,0.469,-0.658,-9.511,1.969,4.023,Bye
0,2868,865,865,819,870,936,-0.665,0.471,-0.661,-12.939,1.550,2.389,Bye
0,2872,861,858,817,874,932,-0.664,0.465,-0.667,-17.038,0.985,1.145,Bye
0,2876,861,860,815,868,944,-0.663,0.470,-0.658,-21.076,-0.015,0.061,Bye
0,2880,874,865,818,873,929,-0.668,0.462,-0.658,-24.740,-1.366,-1.260,Bye
0,2884,863,866,818,874,939,-0.659,0.460,-0.649,-27.527,-3.740,-2.458,Bye
0,2888,858,854,822,870,933,-0.656,0.443,-0.639,-29.359,-5.817,-2.481,Bye
0,2892,858,865,813,874,930,-0.647,0.449,-0.637,-30.687,-7.519,-1.046,Bye
0,2896,865,861,816,869,938,-0.641,0.438,-0.635,-30.649,-9.328,1.588,Bye
0,2900,863,866,816,870,926,-0.632,0.440,-0.626,-29.519,-10.321,4.947,Bye
0,2904,863,865,816,869,934,-0.621,0.433,-0.620,-27.794,-10.435,8.542,Bye
0,2908,863,860,816,871,934,-0.621,0.431,-0.624,-26.290,-9.824,12.573,Bye
0,2912,859,858,825,878,933,-0.609,0.425,-0.621,-24.664,-8.542,16.092,Bye
0,2916,859,858,816,875,931,-0.618,0.428,-0.620,-23.962,-7.267,18.962,Bye
0,2920,867,860,818,871,931,-0.609,0.423,-0.621,-23.519,-5.351,20.641,Bye
0,2924,863,862,816,873,933,-0.623,0.421,-0.633,-23.183,-3.954,21.863,Bye
0,2928,861,863,819,873,929,-0.624,0.419,-0.626,-23.183,-2.420,22.695,Bye
0,2932,853,865,819,874,937,-0.620,0.417,-0.623,-23.977,-1.153,23.275,Bye
0,2936,863,864,816,873,927,-0.622,0.425,-0.633,-25.427,-0.214,23.107,Bye
0,2940,863,861,832,876,938,-0.629,0.414,-0.627,-27.038,0.305,22.344,Bye
0,2944,866,869,816,867,938,-0.638,0.413,-0.644,-29.557,0.992,20.534,Bye
0,2948,861,867,819,874,942,-0.641,0.421,-0.647,-32.618,1.511,18.832,Bye
0,2952,862,863,818,876,931,-0.650,0.421,-0.650,-35.794,2.466,16.634,Bye
0,2956,860,863,816,873,930,-0.657,0.421,-0.666,-39.786,3.473,13.779,Bye
0,2960,855,864,820,868,935,-0.668,0.426,-0.682,-43.969,4.458,10.565,Bye
0,2964,862,863,816,877,939,-0.682,0.416,-0.689,-47.672,5.427,7.305,Bye
0,2968,857,858,819,872,923,-0.684,0.416,-0.693,-51.420,5.870,3.855,Bye
0,2972,862,869,816,869,934,-0.696,0.419,-0.697,-54.611,6.038,0.550,Bye
0,2976,860,864,819,876,939,-0.697,0.413,-0.709,-56.962,5.756,-2.321,Bye
0,2980,865,873,818,871,935,-0.700,0.408,-0.713,-58.718,4.641,-5.137,Bye
0,2984,861,861,820,868,928,-0.696,0.397,-0.697,-59.023,3.023,-7.427,Bye
0,2988,865,861,817,870,930,-0.699,0.389,-0.691,-57.573,0.573,-8.802,Bye
0,2992,866,857,821,871,942,-0.689,0.389,-0.692,-54.740,-2.321,-8.840,Bye
0,2996,861,863,817,865,926,-0.684,0.378,-0.673,-50.954,-4.962,-6.855,Bye
